Wavelength	OD
799.000000 0.006773
798.000000 0.007685
797.000000 0.003853
796.000000 0.002598
795.000000 0.002191
794.000000 0.002303
793.000000 0.002194
792.000000 0.001370
791.000000 0.002087
790.000000 -0.000000
789.000000 0.001637
788.000000 0.000929
787.000000 0.004378
786.000000 0.002411
785.000000 0.003508
784.000000 0.005211
783.000000 0.001657
782.000000 0.000975
781.000000 0.001273
780.000000 0.002264
779.000000 0.001428
778.000000 0.006655
777.000000 0.006086
776.000000 0.004578
775.000000 0.005414
774.000000 0.009894
773.000000 0.009643
772.000000 0.008499
771.000000 0.008335
770.000000 0.006729
769.000000 0.008382
768.000000 0.008457
767.000000 0.010042
766.000000 0.008507
765.000000 0.008456
764.000000 0.009132
763.000000 0.009514
762.000000 0.009216
761.000000 0.009192
760.000000 0.009251
759.000000 0.009588
758.000000 0.010453
757.000000 0.010238
756.000000 0.008929
755.000000 0.008050
754.000000 0.009742
753.000000 0.008932
752.000000 0.008459
751.000000 0.009130
750.000000 0.008651
749.000000 0.009641
748.000000 0.010447
747.000000 0.011600
746.000000 0.009518
745.000000 0.010755
744.000000 0.009705
743.000000 0.007527
742.000000 0.007447
741.000000 0.004956
740.000000 0.007814
739.000000 0.008953
738.000000 0.009285
737.000000 0.010208
736.000000 0.009503
735.000000 0.010582
734.000000 0.009462
733.000000 0.009849
732.000000 0.009326
731.000000 0.009629
730.000000 0.010413
729.000000 0.010992
728.000000 0.012083
727.000000 0.012382
726.000000 0.013276
725.000000 0.015626
724.000000 0.014204
723.000000 0.016343
722.000000 0.016534
721.000000 0.016721
720.000000 0.016372
719.000000 0.017131
718.000000 0.016458
717.000000 0.017217
716.000000 0.019071
715.000000 0.018613
714.000000 0.019128
713.000000 0.018879
712.000000 0.020056
711.000000 0.020205
710.000000 0.022177
709.000000 0.020728
708.000000 0.022463
707.000000 0.024464
706.000000 0.024793
705.000000 0.027486
704.000000 0.029142
703.000000 0.029995
702.000000 0.031601
701.000000 0.033294
700.000000 0.033536
699.000000 0.033840
698.000000 0.037539
697.000000 0.038236
696.000000 0.039130
695.000000 0.039789
694.000000 0.041957
693.000000 0.045364
692.000000 0.049213
691.000000 0.053817
690.000000 0.054581
689.000000 0.056272
688.000000 0.059298
687.000000 0.061995
686.000000 0.064592
685.000000 0.066754
684.000000 0.070575
683.000000 0.074439
682.000000 0.080712
681.000000 0.087480
680.000000 0.091970
679.000000 0.099726
678.000000 0.105715
677.000000 0.113040
676.000000 0.118744
675.000000 0.125897
674.000000 0.134721
673.000000 0.143563
672.000000 0.153918
671.000000 0.164113
670.000000 0.177348
669.000000 0.193461
668.000000 0.211516
667.000000 0.230582
666.000000 0.252226
665.000000 0.277839
664.000000 0.306998
663.000000 0.341582
662.000000 0.380364
661.000000 0.423332
660.000000 0.473203
659.000000 0.527964
658.000000 0.591125
657.000000 0.661226
656.000000 0.741104
655.000000 0.828394
654.000000 0.926478
653.000000 1.032011
652.000000 1.146245
651.000000 1.268474
650.000000 1.397376
649.000000 1.535984
648.000000 1.676886
647.000000 1.829049
646.000000 1.977219
645.000000 2.120195
644.000000 2.256985
643.000000 2.390110
642.000000 2.502728
641.000000 2.617754
640.000000 2.720598
639.000000 2.792645
638.000000 2.866219
637.000000 2.883109
636.000000 2.904252
635.000000 2.884632
634.000000 2.839974
633.000000 2.768746
632.000000 2.690807
631.000000 2.610131
630.000000 2.530661
629.000000 2.446682
628.000000 2.357884
627.000000 2.284555
626.000000 2.207183
625.000000 2.128633
624.000000 2.050297
623.000000 1.972872
622.000000 1.903277
621.000000 1.833678
620.000000 1.764369
619.000000 1.704821
618.000000 1.644267
617.000000 1.590880
616.000000 1.541409
615.000000 1.497892
614.000000 1.457283
613.000000 1.422302
612.000000 1.391405
611.000000 1.358950
610.000000 1.331723
609.000000 1.308260
608.000000 1.288083
607.000000 1.268170
606.000000 1.255529
605.000000 1.244126
604.000000 1.237098
603.000000 1.236429
602.000000 1.240724
601.000000 1.248896
600.000000 1.261508
599.000000 1.282450
598.000000 1.302850
597.000000 1.331400
596.000000 1.361283
595.000000 1.396953
594.000000 1.434116
593.000000 1.472089
592.000000 1.511811
591.000000 1.550652
590.000000 1.587360
589.000000 1.618924
588.000000 1.649008
587.000000 1.670647
586.000000 1.687407
585.000000 1.694162
584.000000 1.694787
583.000000 1.686761
582.000000 1.674565
581.000000 1.657817
580.000000 1.635093
579.000000 1.604881
578.000000 1.572941
577.000000 1.540939
576.000000 1.511614
575.000000 1.485640
574.000000 1.461355
573.000000 1.437899
572.000000 1.418755
571.000000 1.403131
570.000000 1.395152
569.000000 1.391696
568.000000 1.390249
567.000000 1.387787
566.000000 1.385895
565.000000 1.383270
564.000000 1.378973
563.000000 1.374012
562.000000 1.365230
561.000000 1.352561
560.000000 1.337793
559.000000 1.322530
558.000000 1.304759
557.000000 1.286742
556.000000 1.270980
555.000000 1.255527
554.000000 1.237423
553.000000 1.221171
552.000000 1.206288
551.000000 1.189855
550.000000 1.174518
549.000000 1.159499
548.000000 1.146584
547.000000 1.129920
546.000000 1.116061
545.000000 1.102610
544.000000 1.086501
543.000000 1.070340
542.000000 1.055417
541.000000 1.041292
540.000000 1.024658
539.000000 1.009089
538.000000 0.992133
537.000000 0.974195
536.000000 0.959378
535.000000 0.946852
534.000000 0.932297
533.000000 0.918564
532.000000 0.906716
531.000000 0.896588
530.000000 0.889300
529.000000 0.883385
528.000000 0.875830
527.000000 0.870077
526.000000 0.865579
525.000000 0.861257
524.000000 0.852006
523.000000 0.842001
522.000000 0.831959
521.000000 0.820463
520.000000 0.806070
519.000000 0.801749
518.000000 0.795204
517.000000 0.790536
516.000000 0.779435
515.000000 0.767404
514.000000 0.755326
513.000000 0.743540
512.000000 0.732523
511.000000 0.723990
510.000000 0.714105
509.000000 0.704924
508.000000 0.695442
507.000000 0.686104
506.000000 0.678005
505.000000 0.669618
504.000000 0.661033
503.000000 0.651140
502.000000 0.641327
501.000000 0.631029
500.000000 0.619751
499.000000 0.610116
498.000000 0.598952
497.000000 0.589344
496.000000 0.580534
495.000000 0.573382
494.000000 0.567002
493.000000 0.559555
492.000000 0.553727
491.000000 0.546877
490.000000 0.541459
489.000000 0.534783
488.000000 0.528400
487.000000 0.520741
486.000000 0.513851
485.000000 0.507622
484.000000 0.501768
483.000000 0.495222
482.000000 0.489306
481.000000 0.483905
480.000000 0.479668
479.000000 0.474716
478.000000 0.470340
477.000000 0.465622
476.000000 0.460700
475.000000 0.456843
474.000000 0.453590
473.000000 0.450039
472.000000 0.445661
471.000000 0.439888
470.000000 0.435747
469.000000 0.430310
468.000000 0.426038
467.000000 0.420603
466.000000 0.413703
465.000000 0.406852
464.000000 0.399759
463.000000 0.395492
462.000000 0.389426
461.000000 0.384825
460.000000 0.380067
459.000000 0.376121
458.000000 0.372721
457.000000 0.369594
456.000000 0.366153
455.000000 0.361987
454.000000 0.359215
453.000000 0.355424
452.000000 0.351890
451.000000 0.348040
450.000000 0.344172
449.000000 0.340467
448.000000 0.336931
447.000000 0.334756
446.000000 0.331272
445.000000 0.329133
444.000000 0.325841
443.000000 0.323152
442.000000 0.320289
441.000000 0.316906
440.000000 0.315010
439.000000 0.311236
438.000000 0.308238
437.000000 0.305304
436.000000 0.302837
435.000000 0.297489
434.000000 0.294271
433.000000 0.292482
432.000000 0.288880
431.000000 0.287498
430.000000 0.284727
429.000000 0.281874
428.000000 0.278855
427.000000 0.279382
426.000000 0.278404
425.000000 0.274142
424.000000 0.267474
423.000000 0.263837
422.000000 0.258825
421.000000 0.255535
420.000000 0.253455
419.000000 0.253386
418.000000 0.253759
417.000000 0.252434
416.000000 0.253422
415.000000 0.252028
414.000000 0.247979
413.000000 0.247092
412.000000 0.244752
411.000000 0.241331
410.000000 0.239931
409.000000 0.237120
408.000000 0.233383
407.000000 0.231984
406.000000 0.230872
405.000000 0.231513
404.000000 0.228009
403.000000 0.225661
402.000000 0.224854
401.000000 0.221387
400.000000 0.222228
