Wavelength	OD
196.210000 0.000414
197.010000 0.002017
197.810000 -0.001436
198.610000 -0.001695
199.410000 -0.002991
200.210000 -0.002751
201.010000 -0.001090
201.810000 -0.000285
202.610000 -0.001303
203.410000 -0.000556
204.220000 0.000104
205.020000 -0.000210
205.820000 0.000248
206.620000 -0.001089
207.420000 -0.001346
208.220000 -0.001517
209.020000 -0.001847
209.820000 -0.002684
210.620000 -0.000249
211.420000 0.001430
212.220000 0.002798
213.020000 0.002050
213.820000 -0.009836
214.610000 -0.012343
215.410000 -0.013377
216.210000 -0.014946
217.010000 -0.014489
217.810000 -0.004046
218.610000 -0.002313
219.410000 -0.000912
220.210000 -0.000587
221.010000 -0.000674
221.810000 0.002676
222.610000 0.000026
223.410000 -0.000593
224.200000 -0.014275
225.000000 -0.013472
225.800000 -0.014338
226.600000 -0.018116
227.400000 -0.020401
228.200000 -0.009612
228.990000 -0.011844
229.790000 -0.005754
230.590000 0.001122
231.390000 0.003601
232.190000 0.002696
232.980000 0.004452
233.780000 -0.000676
234.580000 -0.001815
235.380000 -0.003350
236.180000 -0.002244
236.970000 -0.002823
237.770000 -0.002900
238.570000 -0.002406
239.370000 -0.001455
240.160000 -0.001583
240.960000 -0.000831
241.760000 -0.010217
242.550000 -0.009022
243.350000 0.000111
244.150000 0.000990
244.940000 0.012943
245.740000 0.020741
246.540000 0.020182
247.330000 0.013749
248.130000 0.013610
248.930000 -0.000920
249.720000 -0.002812
250.520000 -0.001738
251.320000 -0.001721
252.110000 -0.004511
252.910000 -0.001268
253.700000 -0.002503
254.500000 -0.002576
255.300000 -0.003603
256.090000 -0.002856
256.890000 -0.005297
257.680000 -0.004961
258.480000 -0.006096
259.270000 -0.004875
260.070000 0.009333
260.870000 0.010346
261.660000 0.009700
262.460000 0.010505
263.250000 0.012334
264.050000 -0.000393
264.840000 -0.000375
265.640000 0.001409
266.430000 0.001896
267.230000 0.001112
268.020000 0.000242
268.810000 0.000169
269.610000 -0.000301
270.400000 -0.001487
271.200000 -0.003167
271.990000 -0.005245
272.790000 -0.005967
273.580000 -0.005353
274.380000 -0.003472
275.170000 -0.002762
275.960000 0.000837
276.760000 0.002444
277.550000 0.007947
278.340000 0.006863
279.140000 0.007511
279.930000 0.005594
280.730000 0.004001
281.520000 -0.003644
282.310000 -0.006115
283.110000 -0.006817
283.900000 -0.005573
284.690000 -0.004226
285.490000 -0.003827
286.280000 -0.000806
287.070000 0.001426
287.860000 -0.002441
288.660000 -0.003210
289.450000 -0.002022
290.240000 -0.003991
291.030000 -0.006623
291.830000 -0.004923
292.620000 -0.004218
293.410000 -0.005020
294.200000 -0.003146
295.000000 -0.000791
295.790000 -0.000839
296.580000 -0.000632
297.370000 -0.000298
298.160000 -0.001409
298.960000 -0.001812
299.750000 -0.009688
300.540000 -0.013870
301.330000 -0.014065
302.120000 -0.013268
302.920000 -0.012885
303.710000 -0.005870
304.500000 -0.002759
305.290000 -0.004601
306.080000 -0.004463
306.870000 -0.002688
307.660000 -0.001012
308.450000 -0.001894
309.240000 -0.000315
310.040000 -0.000732
310.830000 -0.002697
311.620000 -0.003271
312.410000 -0.001339
313.200000 -0.001209
313.990000 -0.001171
314.780000 -0.000474
315.570000 -0.001598
316.360000 -0.012322
317.150000 -0.012975
317.940000 -0.013090
318.730000 -0.011480
319.520000 -0.009521
320.310000 -0.000167
321.100000 0.001476
321.890000 0.001688
322.680000 0.002210
323.470000 0.002614
324.260000 0.002123
325.050000 -0.008475
325.840000 -0.008850
326.630000 -0.009931
327.420000 -0.018494
328.200000 -0.019309
328.990000 -0.010735
329.780000 -0.011842
330.570000 -0.009950
331.360000 0.005315
332.150000 0.003789
332.940000 0.004041
333.730000 0.004562
334.520000 0.003904
335.300000 -0.000377
336.090000 0.000500
336.880000 -0.000812
337.670000 -0.001557
338.460000 0.000310
339.250000 -0.001103
340.030000 -0.004367
340.820000 -0.002499
341.610000 -0.001503
342.400000 -0.005898
343.190000 -0.004955
343.970000 -0.003262
344.760000 -0.002953
345.550000 -0.002384
346.340000 0.000553
347.120000 0.000444
347.910000 0.001601
348.700000 -0.000964
349.480000 -0.000724
350.270000 -0.000732
351.060000 0.000118
351.850000 -0.001015
352.630000 0.000445
353.420000 0.000201
354.210000 0.001740
354.990000 0.000913
355.780000 0.000825
356.570000 0.000773
357.350000 0.001288
358.140000 -0.000818
358.930000 -0.002008
359.710000 -0.001830
360.500000 -0.000454
361.280000 -0.000550
362.070000 -0.001046
362.860000 0.001479
363.640000 0.004044
364.430000 0.004026
365.210000 0.003051
366.000000 0.005235
366.780000 0.005578
367.570000 0.003913
368.360000 0.002968
369.140000 0.002696
369.930000 0.002279
370.710000 0.018151
371.500000 0.017160
372.280000 0.017918
373.070000 0.022592
373.850000 0.018388
374.640000 -0.002868
375.420000 -0.001129
376.210000 0.009633
376.990000 0.010529
377.780000 0.015345
378.560000 0.021157
379.340000 0.020970
380.130000 0.011464
380.910000 0.011187
381.700000 0.012387
382.480000 0.012008
383.270000 0.011788
384.050000 0.009795
384.830000 0.011405
385.620000 0.010816
386.400000 0.011588
387.180000 0.012755
387.970000 0.014511
388.750000 0.026624
389.540000 0.027153
390.320000 0.028111
391.100000 0.028747
391.890000 0.029253
392.670000 0.013453
393.450000 0.015070
394.230000 0.013860
395.020000 0.016348
395.800000 0.016852
396.580000 0.017360
397.370000 0.011243
398.150000 0.012328
398.930000 0.012843
399.710000 0.013691
400.500000 0.016854
401.280000 0.027885
402.060000 0.029465
402.840000 0.029414
403.630000 0.030377
404.410000 0.029826
405.190000 0.031341
405.970000 0.027356
406.750000 0.025466
407.530000 0.026222
408.320000 0.026642
409.100000 0.025326
409.880000 0.031475
410.660000 0.035909
411.440000 0.036637
412.220000 0.039196
413.010000 0.041678
413.790000 0.039540
414.570000 0.039667
415.350000 0.040984
416.130000 0.042899
416.910000 0.043755
417.690000 0.045625
418.470000 0.047546
419.250000 0.051513
420.030000 0.050204
420.810000 0.052345
421.590000 0.056361
422.370000 0.055571
423.160000 0.053242
423.940000 0.068469
424.720000 0.068183
425.500000 0.062475
426.280000 0.064207
427.060000 0.064763
427.840000 0.058828
428.620000 0.061883
429.400000 0.069371
430.170000 0.070626
430.950000 0.072869
431.730000 0.068973
432.510000 0.068675
433.290000 0.068231
434.070000 0.073657
434.850000 0.075274
435.630000 0.082056
436.410000 0.086288
437.190000 0.091237
437.970000 0.091227
438.750000 0.082436
439.520000 0.071368
440.300000 0.074300
441.080000 0.073970
441.860000 0.075327
442.640000 0.088322
443.420000 0.109607
444.200000 0.113076
444.970000 0.120534
445.750000 0.130279
446.530000 0.135646
447.310000 0.137104
448.090000 0.140452
448.860000 0.144278
449.640000 0.151433
450.420000 0.145446
451.200000 0.152175
451.980000 0.155597
452.750000 0.162711
453.530000 0.164862
454.310000 0.183472
455.080000 0.190513
455.860000 0.160662
456.640000 0.168000
457.420000 0.171410
458.190000 0.173925
458.970000 0.173636
459.750000 0.218204
460.520000 0.218590
461.300000 0.207355
462.080000 0.207805
462.850000 0.211230
463.630000 0.211143
464.410000 0.211823
465.180000 0.225599
465.960000 0.216773
466.740000 0.218257
467.510000 0.226525
468.290000 0.232624
469.060000 0.236050
469.840000 0.255012
470.620000 0.261939
471.390000 0.243462
472.170000 0.225094
472.940000 0.227522
473.720000 0.229492
474.490000 0.231741
475.270000 0.251873
476.040000 0.277300
476.820000 0.286338
477.590000 0.286613
478.370000 0.291296
479.140000 0.294752
479.920000 0.295881
480.690000 0.295778
481.470000 0.306639
482.240000 0.302343
483.020000 0.298929
483.790000 0.308051
484.570000 0.312056
485.340000 0.317094
486.120000 0.331965
486.890000 0.351757
487.660000 0.355323
488.440000 0.377084
489.210000 0.391104
489.990000 0.403223
490.760000 0.406326
491.530000 0.413119
492.310000 0.410118
493.080000 0.415895
493.860000 0.410887
494.630000 0.408156
495.400000 0.415893
496.180000 0.416645
496.950000 0.379124
497.720000 0.395614
498.500000 0.409685
499.270000 0.405967
500.040000 0.423230
500.810000 0.479870
501.590000 0.480283
502.360000 0.491619
503.130000 0.522856
503.910000 0.487342
504.680000 0.491387
505.450000 0.502757
506.220000 0.508738
507.000000 0.513071
507.770000 0.558560
508.540000 0.563980
509.310000 0.568668
510.080000 0.568232
510.860000 0.547652
511.630000 0.543373
512.400000 0.545490
513.170000 0.537982
513.940000 0.545932
514.720000 0.576490
515.490000 0.590581
516.260000 0.598875
517.030000 0.607350
517.800000 0.607357
518.570000 0.611285
519.340000 0.627908
520.110000 0.632296
520.890000 0.647747
521.660000 0.657820
522.430000 0.652798
523.200000 0.644755
523.970000 0.649905
524.740000 0.652692
525.510000 0.655363
526.280000 0.671407
527.050000 0.676258
527.820000 0.685370
528.590000 0.664208
529.360000 0.684135
530.130000 0.657667
530.900000 0.664017
531.670000 0.666092
532.440000 0.697552
533.210000 0.685230
533.980000 0.688131
534.750000 0.686180
535.520000 0.687133
536.290000 0.691885
537.060000 0.703683
537.830000 0.727028
538.600000 0.738540
539.370000 0.740841
540.140000 0.727127
540.910000 0.726430
541.670000 0.687141
542.440000 0.686010
543.210000 0.680721
543.980000 0.698769
544.750000 0.702101
545.520000 0.757816
546.290000 0.772329
547.060000 0.776445
547.820000 0.751587
548.590000 0.745337
549.360000 0.708666
550.130000 0.696465
550.900000 0.680284
551.670000 0.695015
552.430000 0.698155
553.200000 0.718633
553.970000 0.727870
554.740000 0.768198
555.500000 0.751907
556.270000 0.757035
557.040000 0.758133
557.810000 0.754377
558.570000 0.727695
559.340000 0.670652
560.110000 0.660436
560.880000 0.677327
561.640000 0.681804
562.410000 0.681395
563.180000 0.760293
563.940000 0.768356
564.710000 0.736700
565.480000 0.741351
566.240000 0.764875
567.010000 0.754570
567.780000 0.768861
568.540000 0.810794
569.310000 0.786342
570.080000 0.790762
570.840000 0.811487
571.610000 0.790936
572.370000 0.754501
573.140000 0.733314
573.910000 0.734408
574.670000 0.735197
575.440000 0.759250
576.200000 0.790528
576.970000 0.845736
577.730000 0.844052
578.500000 0.846894
579.270000 0.844345
580.030000 0.843018
580.800000 0.842374
581.560000 0.837359
582.330000 0.794117
583.090000 0.790699
583.860000 0.797214
584.620000 0.740255
585.390000 0.746344
586.150000 0.790575
586.910000 0.781499
587.680000 0.782965
588.440000 0.851865
589.210000 0.842434
589.970000 0.837307
590.740000 0.842286
591.500000 0.852878
592.270000 0.855804
593.030000 0.860480
593.790000 0.863942
594.560000 0.866482
595.320000 0.866812
596.080000 0.864153
596.850000 0.877252
597.610000 0.879137
598.380000 0.888760
599.140000 0.884602
599.900000 0.890949
600.670000 0.879660
601.430000 0.883780
602.190000 0.889150
602.950000 0.897771
603.720000 0.892217
604.480000 0.904221
605.240000 0.908626
606.010000 0.877861
606.770000 0.850593
607.530000 0.832903
608.290000 0.817253
609.060000 0.810020
609.820000 0.819823
610.580000 0.839586
611.340000 0.833986
612.110000 0.857919
612.870000 0.842543
613.630000 0.847642
614.390000 0.839364
615.150000 0.870567
615.920000 0.852954
616.680000 0.872958
617.440000 0.860411
618.200000 0.868011
618.960000 0.850007
619.720000 0.861290
620.480000 0.855453
621.250000 0.871355
622.010000 0.868883
622.770000 0.880429
623.530000 0.856815
624.290000 0.850214
625.050000 0.849763
625.810000 0.850688
626.570000 0.841255
627.330000 0.843306
628.090000 0.808727
628.850000 0.781489
629.610000 0.770242
630.370000 0.773942
631.140000 0.755319
631.900000 0.777752
632.660000 0.769918
633.420000 0.769713
634.180000 0.755611
634.940000 0.773106
635.700000 0.773346
636.460000 0.797754
637.210000 0.793171
637.970000 0.755935
638.730000 0.759063
639.490000 0.763566
640.250000 0.766581
641.010000 0.777110
641.770000 0.835948
642.530000 0.859282
643.290000 0.876411
644.050000 0.909443
644.810000 0.916968
645.570000 0.921247
646.330000 0.926385
647.080000 0.935988
647.840000 0.927353
648.600000 0.944351
649.360000 0.951493
650.120000 0.955879
650.880000 0.922751
651.630000 0.909348
652.390000 0.885140
653.150000 0.897047
653.910000 0.889377
654.670000 0.918618
655.420000 0.927731
656.180000 0.933410
656.940000 0.897810
657.700000 0.885973
658.460000 0.870471
659.210000 0.858514
659.970000 0.832162
660.730000 0.823514
661.490000 0.792733
662.240000 0.728837
663.000000 0.705462
663.760000 0.690915
664.510000 0.665410
665.270000 0.641023
666.030000 0.641681
666.780000 0.613904
667.540000 0.588545
668.300000 0.563947
669.050000 0.543717
669.810000 0.522423
670.570000 0.499572
671.320000 0.478815
672.080000 0.461060
672.840000 0.443867
673.590000 0.425879
674.350000 0.412169
675.100000 0.394799
675.860000 0.378770
676.620000 0.356221
677.370000 0.338732
678.130000 0.326193
678.880000 0.316452
679.640000 0.305031
680.390000 0.294446
681.150000 0.287914
681.900000 0.273799
682.660000 0.263598
683.410000 0.253496
684.170000 0.247725
684.920000 0.237948
685.680000 0.232100
686.430000 0.223447
687.190000 0.216984
687.940000 0.210637
688.700000 0.203942
689.450000 0.197000
690.210000 0.191221
690.960000 0.184769
691.720000 0.178326
692.470000 0.172789
693.220000 0.166873
693.980000 0.160876
694.730000 0.154711
695.490000 0.148322
696.240000 0.143622
696.990000 0.139739
697.750000 0.135545
698.500000 0.132859
699.250000 0.131076
700.010000 0.127489
700.760000 0.124030
701.510000 0.121129
702.270000 0.116927
703.020000 0.112916
703.770000 0.108018
704.530000 0.104598
705.280000 0.101262
706.030000 0.097785
706.790000 0.094845
707.540000 0.093394
708.290000 0.090885
709.040000 0.088141
709.800000 0.086685
710.550000 0.085503
711.300000 0.082763
712.050000 0.080186
712.800000 0.077401
713.560000 0.075123
714.310000 0.071391
715.060000 0.070008
715.810000 0.068671
716.560000 0.067932
717.320000 0.066551
718.070000 0.065243
718.820000 0.064411
719.570000 0.062961
720.320000 0.061468
721.070000 0.060113
721.830000 0.059587
722.580000 0.056875
723.330000 0.055649
724.080000 0.054504
724.830000 0.053238
725.580000 0.052224
726.330000 0.051808
727.080000 0.050747
727.830000 0.049700
728.580000 0.048840
729.330000 0.047629
730.080000 0.046901
730.830000 0.046288
731.580000 0.045440
732.340000 0.045311
733.090000 0.045142
733.840000 0.042139
734.590000 0.041728
735.340000 0.041336
736.090000 0.039607
736.830000 0.038737
737.580000 0.040301
738.330000 0.039471
739.080000 0.039168
739.830000 0.038574
740.580000 0.038203
741.330000 0.037665
742.080000 0.037178
742.830000 0.036458
743.580000 0.036207
744.330000 0.035334
745.080000 0.034993
745.830000 0.034398
746.570000 0.033947
747.320000 0.034348
748.070000 0.033898
748.820000 0.033108
749.570000 0.033355
750.320000 0.032718
751.070000 0.029368
751.810000 0.029328
752.560000 0.029536
753.310000 0.028237
754.060000 0.028138
754.810000 0.030714
755.550000 0.030175
756.300000 0.029910
757.050000 0.030209
757.800000 0.030171
758.550000 0.028723
759.290000 0.029145
760.040000 0.028571
760.790000 0.027758
761.530000 0.027206
762.280000 0.027902
763.030000 0.027327
763.780000 0.027220
764.520000 0.027511
765.270000 0.027469
766.020000 0.027280
766.760000 0.026412
767.510000 0.026436
768.260000 0.026056
769.000000 0.026174
769.750000 0.026493
770.500000 0.030927
771.240000 0.030894
771.990000 0.031218
772.730000 0.030858
773.480000 0.029650
774.230000 0.025442
774.970000 0.024484
775.720000 0.024199
776.460000 0.023528
777.210000 0.024023
777.960000 0.023920
778.700000 0.024584
779.450000 0.023995
780.190000 0.024214
780.940000 0.023644
781.680000 0.022936
782.430000 0.022670
783.170000 0.021892
783.920000 0.021474
784.660000 0.021183
785.410000 0.021044
786.150000 0.020682
786.900000 0.022274
787.640000 0.021207
788.390000 0.021865
789.130000 0.021736
789.870000 0.019706
790.620000 0.019161
791.360000 0.022184
792.110000 0.021363
792.850000 0.020636
793.600000 0.022586
794.340000 0.021782
795.080000 0.019786
795.830000 0.019848
796.570000 0.020688
797.310000 0.020489
798.060000 0.021086
798.800000 0.020583
799.540000 0.020915
800.290000 0.020341
801.030000 0.020040
801.770000 0.019442
802.520000 0.018769
803.260000 0.017934
804.000000 0.017448
804.750000 0.017144
805.490000 0.016806
806.230000 0.017253
806.970000 0.017598
807.720000 0.018446
808.460000 0.018805
809.200000 0.018647
809.940000 0.017915
810.690000 0.017556
811.430000 0.017424
812.170000 0.017327
812.910000 0.017886
813.650000 0.015439
814.400000 0.015493
815.140000 0.015502
815.880000 0.015438
816.620000 0.015405
817.360000 0.016219
818.110000 0.015996
818.850000 0.015866
819.590000 0.015616
820.330000 0.015390
821.070000 0.017353
821.810000 0.017424
822.550000 0.017014
823.290000 0.016869
824.030000 0.017185
824.780000 0.017499
825.520000 0.017115
826.260000 0.017126
827.000000 0.017073
827.740000 0.016645
828.480000 0.016448
829.220000 0.014260
829.960000 0.011817
830.700000 0.011786
831.440000 0.011369
832.180000 0.011517
832.920000 0.013975
833.660000 0.016207
834.400000 0.016113
835.140000 0.016661
835.880000 0.016320
836.620000 0.015787
837.360000 0.015765
838.100000 0.016081
838.840000 0.015585
839.580000 0.015583
840.310000 0.015415
841.050000 0.015532
841.790000 0.014811
842.530000 0.014853
843.270000 0.015472
844.010000 0.016996
844.750000 0.016507
845.490000 0.017085
846.230000 0.017995
846.960000 0.017349
847.700000 0.015415
848.440000 0.016705
849.180000 0.016464
849.920000 0.015027
850.660000 0.015342
851.390000 0.016245
852.130000 0.009680
852.870000 0.009384
853.610000 0.010022
854.350000 0.009179
855.080000 0.009006
855.820000 0.013773
856.560000 0.014345
857.300000 0.014231
858.030000 0.014179
858.770000 0.014144
859.510000 0.013214
860.240000 0.012417
860.980000 0.011962
861.720000 0.011921
862.460000 0.012270
863.190000 0.013814
863.930000 0.014454
864.670000 0.014167
865.400000 0.015884
866.140000 0.015321
866.880000 0.015553
867.610000 0.015449
868.350000 0.015901
869.080000 0.017709
869.820000 0.017537
870.560000 0.017712
871.290000 0.017103
872.030000 0.016020
872.760000 0.012318
873.500000 0.012204
874.240000 0.009742
874.970000 0.009470
875.710000 0.010466
876.440000 0.010748
877.180000 0.010805
877.910000 0.012846
878.650000 0.012847
879.380000 0.012077
880.120000 0.010667
880.850000 0.010952
881.590000 0.008950
882.320000 0.009021
883.060000 0.009303
883.790000 0.010319
884.530000 0.009165
885.260000 0.011377
886.000000 0.011309
886.730000 0.011028
887.470000 0.010969
888.200000 0.011925
888.930000 0.014094
889.670000 0.011571
890.400000 0.012080
891.140000 0.012335
891.870000 0.010278
892.600000 0.007760
893.340000 0.009856
894.070000 0.009780
894.800000 0.009888
895.540000 0.012408
896.270000 0.011442
897.010000 0.011958
897.740000 0.011869
898.470000 0.011341
899.200000 0.010991
899.940000 0.011416
900.670000 0.009887
901.400000 0.009672
902.140000 0.009739
902.870000 0.009747
903.600000 0.010420
904.330000 0.011428
905.070000 0.011660
905.800000 0.012047
906.530000 0.011969
907.260000 0.011615
908.000000 0.011931
908.730000 0.012339
909.460000 0.012158
910.190000 0.011797
910.920000 0.011802
911.660000 0.011191
912.390000 0.010348
913.120000 0.009958
913.850000 0.010233
914.580000 0.010120
915.310000 0.011123
916.040000 0.011283
916.780000 0.011505
917.510000 0.011868
918.240000 0.011665
918.970000 0.011140
919.700000 0.010458
920.430000 0.010349
921.160000 0.007203
921.890000 0.007202
922.620000 0.006755
923.350000 0.007372
924.080000 0.007361
924.820000 0.010155
925.550000 0.009944
926.280000 0.009517
927.010000 0.009452
927.740000 0.009118
928.470000 0.009023
929.200000 0.008814
929.930000 0.009477
930.660000 0.009123
931.390000 0.009290
932.120000 0.008313
932.840000 0.008966
933.570000 0.008952
934.300000 0.008497
935.030000 0.007987
935.760000 0.006295
936.490000 0.005304
937.220000 0.004778
937.950000 0.000951
938.680000 0.001166
939.410000 -0.003364
940.140000 -0.003623
940.860000 -0.004072
941.590000 0.000489
942.320000 -0.002185
943.050000 0.004109
943.780000 0.004450
944.510000 0.004171
945.240000 0.004040
945.960000 0.005833
946.690000 0.005564
947.420000 0.004771
948.150000 0.005197
948.880000 0.005797
949.600000 0.006504
950.330000 0.006925
951.060000 0.007642
951.790000 0.007590
952.510000 0.011976
953.240000 0.013068
953.970000 0.013424
954.700000 0.013083
955.420000 0.012935
956.150000 0.007644
956.880000 0.006856
957.600000 0.007317
958.330000 0.007530
959.060000 0.007544
959.780000 0.009973
960.510000 0.010168
961.240000 0.009756
961.960000 0.009971
962.690000 0.009634
963.420000 0.007385
964.140000 0.008292
964.870000 0.007371
965.600000 0.006744
966.320000 0.007403
967.050000 0.008079
967.770000 0.007613
968.500000 0.007677
969.230000 0.008411
969.950000 0.007476
970.680000 0.006532
971.400000 0.005771
972.130000 0.005763
972.850000 0.005198
973.580000 0.006376
974.300000 0.007255
975.030000 0.009928
975.750000 0.011774
976.480000 0.012320
977.200000 0.012654
977.930000 0.014045
978.650000 0.009209
979.380000 -0.003469
980.100000 -0.008094
980.830000 -0.004995
981.550000 -0.003420
982.280000 -0.001080
983.000000 -0.001025
983.720000 0.003699
984.450000 0.005015
985.170000 0.005842
985.900000 0.006305
986.620000 0.006877
987.340000 0.006692
988.070000 0.006498
988.790000 0.006270
989.510000 0.004020
990.240000 0.001080
990.960000 -0.003250
991.680000 -0.003250
