Wavelength	OD
196.210000 -0.000138
197.010000 -0.005407
197.810000 -0.001895
198.610000 -0.000987
199.410000 -0.000463
200.210000 -0.000373
201.010000 -0.000482
201.810000 -0.000078
202.610000 -0.001114
203.410000 -0.000169
204.220000 -0.001810
205.020000 0.000248
205.820000 0.001856
206.620000 -0.002432
207.420000 -0.003666
208.220000 -0.002600
209.020000 -0.003320
209.820000 -0.003455
210.620000 -0.000610
211.420000 0.001336
212.220000 0.001408
213.020000 0.000851
213.820000 0.000111
214.610000 0.001231
215.410000 0.000759
216.210000 0.000947
217.010000 0.000757
217.810000 -0.001810
218.610000 -0.000625
219.410000 -0.002098
220.210000 -0.002147
221.010000 -0.003012
221.810000 -0.000482
222.610000 -0.001334
223.410000 0.000336
224.200000 -0.012943
225.000000 -0.012363
225.800000 -0.012868
226.600000 -0.015399
227.400000 -0.016249
228.200000 -0.004908
228.990000 -0.005818
229.790000 -0.001109
230.590000 0.004253
231.390000 0.003016
232.190000 0.001942
232.980000 0.002970
233.780000 -0.001025
234.580000 -0.001116
235.380000 0.001398
236.180000 0.001936
236.970000 0.001408
237.770000 0.001446
238.570000 0.000384
239.370000 -0.001356
240.160000 -0.002384
240.960000 -0.003393
241.760000 -0.012123
242.550000 -0.010511
243.350000 -0.009832
244.150000 -0.008597
244.940000 0.007499
245.740000 0.013183
246.540000 0.012461
247.330000 0.012861
248.130000 0.012534
248.930000 -0.002802
249.720000 -0.001448
250.520000 -0.002617
251.320000 -0.002785
252.110000 -0.003136
252.910000 -0.000274
253.700000 -0.000268
254.500000 0.002644
255.300000 0.002951
256.090000 0.002323
256.890000 -0.000177
257.680000 -0.001277
258.480000 -0.003289
259.270000 -0.003632
260.070000 -0.001600
260.870000 -0.001550
261.660000 -0.001924
262.460000 -0.001480
263.250000 -0.000549
264.050000 -0.002172
264.840000 -0.000774
265.640000 0.000577
266.430000 0.000162
267.230000 -0.000709
268.020000 -0.001395
268.810000 -0.002748
269.610000 -0.002938
270.400000 -0.002781
271.200000 -0.000475
271.990000 0.000434
272.790000 0.000963
273.580000 0.000547
274.380000 0.000646
275.170000 -0.001318
275.960000 -0.000987
276.760000 -0.001179
277.550000 0.004671
278.340000 0.004994
279.140000 0.006613
279.930000 0.007497
280.730000 0.009048
281.520000 0.003183
282.310000 0.007721
283.110000 0.006668
283.900000 0.006779
284.690000 0.006526
285.490000 0.005913
286.280000 0.001277
287.070000 0.002397
287.860000 0.008560
288.660000 0.007267
289.450000 0.007510
290.240000 0.008414
291.030000 0.007005
291.830000 0.000662
292.620000 0.001108
293.410000 -0.007796
294.200000 -0.008591
295.000000 -0.009668
295.790000 -0.010884
296.580000 -0.011151
297.370000 -0.000406
298.160000 -0.000304
298.960000 0.002092
299.750000 -0.006370
300.540000 -0.005529
301.330000 -0.004916
302.120000 -0.005323
302.920000 -0.006874
303.710000 0.000191
304.500000 -0.000414
305.290000 -0.001316
306.080000 -0.000988
306.870000 -0.001043
307.660000 -0.000286
308.450000 -0.001395
309.240000 -0.001659
310.040000 -0.002234
310.830000 -0.002615
311.620000 -0.003271
312.410000 -0.001339
313.200000 -0.002441
313.990000 -0.003256
314.780000 -0.001870
315.570000 0.000636
316.360000 -0.001959
317.150000 -0.000780
317.940000 0.000129
318.730000 0.001300
319.520000 0.000512
320.310000 0.001459
321.100000 0.003128
321.890000 0.003654
322.680000 0.003149
323.470000 -0.002369
324.260000 -0.002634
325.050000 -0.013644
325.840000 -0.011378
326.630000 -0.011828
327.420000 -0.016093
328.200000 -0.016761
328.990000 -0.008526
329.780000 -0.011842
330.570000 -0.010962
331.360000 -0.000409
332.150000 -0.001086
332.940000 0.000593
333.730000 0.001070
334.520000 0.000844
335.300000 0.001134
336.090000 -0.000547
336.880000 -0.002016
337.670000 -0.001000
338.460000 -0.001117
339.250000 -0.002319
340.030000 -0.001477
340.820000 0.000799
341.610000 0.000685
342.400000 -0.000080
343.190000 0.001736
343.970000 0.001520
344.760000 0.000541
345.550000 0.000552
346.340000 0.001713
347.120000 0.001282
347.910000 0.002233
348.700000 0.001016
349.480000 -0.000070
350.270000 0.000213
351.060000 0.001160
351.850000 0.000118
352.630000 -0.000148
353.420000 0.000469
354.210000 0.000564
354.990000 0.000022
355.780000 0.000468
356.570000 0.000240
357.350000 0.000026
358.140000 -0.001661
358.930000 -0.002298
359.710000 -0.001538
360.500000 0.000789
361.280000 0.001751
362.070000 0.001781
362.860000 0.002938
363.640000 0.003371
364.430000 0.003452
365.210000 0.001913
366.000000 0.002994
366.780000 0.003289
367.570000 0.002506
368.360000 -0.010628
369.140000 -0.007910
369.930000 -0.007135
370.710000 -0.005886
371.500000 -0.005776
372.280000 0.002691
373.070000 0.004094
373.850000 0.002254
374.640000 -0.003196
375.420000 -0.003256
376.210000 -0.003459
376.990000 -0.003256
377.780000 -0.002754
378.560000 0.003083
379.340000 0.002889
380.130000 0.005026
380.910000 0.004373
381.700000 0.009213
382.480000 0.008680
383.270000 0.009740
384.050000 0.012048
384.830000 0.013134
385.620000 0.009956
386.400000 0.010434
387.180000 0.010997
387.970000 0.008281
388.750000 0.021624
389.540000 0.022251
390.320000 0.023061
391.100000 0.022509
391.890000 0.023602
392.670000 0.009905
393.450000 0.010409
394.230000 0.008751
395.020000 0.009648
395.800000 0.009374
396.580000 0.008870
397.370000 0.006118
398.150000 0.007347
398.930000 0.010057
399.710000 0.009965
400.500000 0.011344
401.280000 0.017803
402.060000 0.019145
402.840000 0.016369
403.630000 0.017280
404.410000 0.017092
405.190000 0.018460
405.970000 0.018347
406.750000 0.014054
407.530000 0.016443
408.320000 0.017143
409.100000 0.015324
409.880000 0.016096
410.660000 0.022269
411.440000 0.020300
412.220000 0.020838
413.010000 0.021785
413.790000 0.020531
414.570000 0.023083
415.350000 0.024587
416.130000 0.025029
416.910000 0.025645
417.690000 0.027212
418.470000 0.025234
419.250000 0.026208
420.030000 0.026051
420.810000 0.027909
421.590000 0.030022
422.370000 0.030599
423.160000 0.031764
423.940000 0.019970
424.720000 0.019638
425.500000 0.019781
426.280000 0.020679
427.060000 0.019882
427.840000 0.031119
428.620000 0.033115
429.400000 0.035174
430.170000 0.035952
430.950000 0.038695
431.730000 0.040624
432.510000 0.040107
433.290000 0.040340
434.070000 0.044298
434.850000 0.045777
435.630000 0.047303
436.410000 0.049129
437.190000 0.052052
437.970000 0.052227
438.750000 0.046423
439.520000 0.040978
440.300000 0.043251
441.080000 0.043242
441.860000 0.042020
442.640000 0.049522
443.420000 0.061132
444.200000 0.063564
444.970000 0.067762
445.750000 0.074144
446.530000 0.077354
447.310000 0.077943
448.090000 0.079515
448.860000 0.081568
449.640000 0.085910
450.420000 0.081926
451.200000 0.087049
451.980000 0.088711
452.750000 0.091785
453.530000 0.093120
454.310000 0.103731
455.080000 0.106798
455.860000 0.094065
456.640000 0.098443
457.420000 0.100507
458.190000 0.100970
458.970000 0.100011
459.750000 0.119973
460.520000 0.122013
461.300000 0.116143
462.080000 0.118071
462.850000 0.121403
463.630000 0.122621
464.410000 0.122724
465.180000 0.130230
465.960000 0.130017
466.740000 0.131962
467.510000 0.137101
468.290000 0.140799
469.060000 0.144561
469.840000 0.151798
470.620000 0.155248
471.390000 0.146574
472.170000 0.141264
472.940000 0.143889
473.720000 0.144967
474.490000 0.145900
475.270000 0.156558
476.040000 0.166858
476.820000 0.170260
477.590000 0.171460
478.370000 0.175327
479.140000 0.177682
479.920000 0.179088
480.690000 0.180196
481.470000 0.180347
482.240000 0.179597
483.020000 0.179252
483.790000 0.184377
484.570000 0.187376
485.340000 0.197331
486.120000 0.206534
486.890000 0.217946
487.660000 0.220272
488.440000 0.233513
489.210000 0.240792
489.990000 0.248101
490.760000 0.251514
491.530000 0.258613
492.310000 0.260449
493.080000 0.264396
493.860000 0.266082
494.630000 0.266378
495.400000 0.271266
496.180000 0.271094
496.950000 0.259335
497.720000 0.267111
498.500000 0.276367
499.270000 0.276083
500.040000 0.287972
500.810000 0.314131
501.590000 0.317044
502.360000 0.319522
503.130000 0.336232
503.910000 0.318576
504.680000 0.321183
505.450000 0.329606
506.220000 0.338235
507.000000 0.341570
507.770000 0.367184
508.540000 0.370984
509.310000 0.372680
510.080000 0.374124
510.860000 0.365459
511.630000 0.364717
512.400000 0.369050
513.170000 0.365006
513.940000 0.371878
514.720000 0.392050
515.490000 0.401453
516.260000 0.406912
517.030000 0.417496
517.800000 0.418418
518.570000 0.421090
519.340000 0.430713
520.110000 0.435830
520.890000 0.444812
521.660000 0.452646
522.430000 0.450971
523.200000 0.448930
523.970000 0.453090
524.740000 0.454976
525.510000 0.456156
526.280000 0.465447
527.050000 0.470229
527.820000 0.474187
528.590000 0.460955
529.360000 0.473256
530.130000 0.460651
530.900000 0.464393
531.670000 0.466799
532.440000 0.489246
533.210000 0.485075
533.980000 0.489863
534.750000 0.491573
535.520000 0.495148
536.290000 0.500669
537.060000 0.509289
537.830000 0.523938
538.600000 0.533099
539.370000 0.537936
540.140000 0.532745
540.910000 0.535392
541.670000 0.515822
542.440000 0.516913
543.210000 0.514804
543.980000 0.527047
544.750000 0.530595
545.520000 0.565402
546.290000 0.575319
547.060000 0.579997
547.820000 0.568077
548.590000 0.566725
549.360000 0.545405
550.130000 0.539909
550.900000 0.531817
551.670000 0.541690
552.430000 0.545630
553.200000 0.560699
553.970000 0.568921
554.740000 0.597702
555.500000 0.590180
556.270000 0.596744
557.040000 0.600571
557.810000 0.601720
558.570000 0.586908
559.340000 0.555272
560.110000 0.550553
560.880000 0.565946
561.640000 0.571030
562.410000 0.571710
563.180000 0.623687
563.940000 0.630535
564.710000 0.616223
565.480000 0.620635
566.240000 0.637837
567.010000 0.631295
567.780000 0.641153
568.540000 0.662641
569.310000 0.646190
570.080000 0.650793
570.840000 0.667885
571.610000 0.656835
572.370000 0.633909
573.140000 0.623564
573.910000 0.626702
574.670000 0.630356
575.440000 0.650623
576.200000 0.676064
576.970000 0.717927
577.730000 0.721603
578.500000 0.726792
579.270000 0.729070
580.030000 0.732246
580.800000 0.733724
581.560000 0.732215
582.330000 0.701492
583.090000 0.697096
583.860000 0.702709
584.620000 0.659406
585.390000 0.663884
586.150000 0.697708
586.910000 0.692191
587.680000 0.692951
588.440000 0.742626
589.210000 0.734462
589.970000 0.726665
590.740000 0.723630
591.500000 0.724656
592.270000 0.720381
593.030000 0.714711
593.790000 0.710356
594.560000 0.706970
595.320000 0.700817
596.080000 0.693175
596.850000 0.695174
597.610000 0.691189
598.380000 0.691653
599.140000 0.683943
599.900000 0.682803
600.670000 0.673208
601.430000 0.673909
602.190000 0.675164
602.950000 0.678879
603.720000 0.676661
604.480000 0.685110
605.240000 0.687736
606.010000 0.673243
606.770000 0.659717
607.530000 0.651954
608.290000 0.648373
609.060000 0.647355
609.820000 0.657750
610.580000 0.674827
611.340000 0.675394
612.110000 0.692047
612.870000 0.688461
613.630000 0.697045
614.390000 0.697889
615.150000 0.725729
615.920000 0.724863
616.680000 0.744198
617.440000 0.743294
618.200000 0.757622
618.960000 0.751627
619.720000 0.762213
620.480000 0.767070
621.250000 0.785732
622.010000 0.788447
622.770000 0.796496
623.530000 0.783937
624.290000 0.782912
625.050000 0.787595
625.810000 0.793193
626.570000 0.796648
627.330000 0.802632
628.090000 0.774728
628.850000 0.755888
629.610000 0.748269
630.370000 0.754583
631.140000 0.738246
631.900000 0.760462
632.660000 0.752521
633.420000 0.753796
634.180000 0.741199
634.940000 0.757830
635.700000 0.758014
636.460000 0.779160
637.210000 0.774857
637.970000 0.732972
638.730000 0.735142
639.490000 0.738169
640.250000 0.739341
641.010000 0.746506
641.770000 0.802662
642.530000 0.819753
643.290000 0.831324
644.050000 0.852679
644.810000 0.849102
645.570000 0.840762
646.330000 0.832506
647.080000 0.822109
647.840000 0.797683
648.600000 0.788651
649.360000 0.776178
650.120000 0.751681
650.880000 0.707137
651.630000 0.672892
652.390000 0.633024
653.150000 0.605788
653.910000 0.574114
654.670000 0.555788
655.420000 0.529859
656.180000 0.496696
656.940000 0.460192
657.700000 0.432444
658.460000 0.405679
659.210000 0.380893
659.970000 0.358796
660.730000 0.338389
661.490000 0.315095
662.240000 0.287076
663.000000 0.268904
663.760000 0.253833
664.510000 0.237890
665.270000 0.222940
666.030000 0.213661
666.780000 0.200590
667.540000 0.188758
668.300000 0.178475
669.050000 0.169089
669.810000 0.160171
670.570000 0.153179
671.320000 0.145352
672.080000 0.138165
672.840000 0.130492
673.590000 0.124240
674.350000 0.117708
675.100000 0.110538
675.860000 0.105558
676.620000 0.100506
677.370000 0.095521
678.130000 0.091118
678.880000 0.089296
679.640000 0.085235
680.390000 0.081088
681.150000 0.078062
681.900000 0.073686
682.660000 0.070231
683.410000 0.066966
684.170000 0.064747
684.920000 0.061805
685.680000 0.059733
686.430000 0.056760
687.190000 0.054652
687.940000 0.053104
688.700000 0.050673
689.450000 0.048716
690.210000 0.046954
690.960000 0.045026
691.720000 0.043088
692.470000 0.041786
693.220000 0.040188
693.980000 0.038587
694.730000 0.037250
695.490000 0.034059
696.240000 0.032323
696.990000 0.031002
697.750000 0.029846
698.500000 0.028599
699.250000 0.029174
700.010000 0.028487
700.760000 0.027606
701.510000 0.026586
702.270000 0.025094
703.020000 0.024228
703.770000 0.024077
704.530000 0.023102
705.280000 0.021999
706.030000 0.021679
706.790000 0.020941
707.540000 0.019553
708.290000 0.018843
709.040000 0.018605
709.800000 0.017811
710.550000 0.018104
711.300000 0.016976
712.050000 0.016303
712.800000 0.015184
713.560000 0.014533
714.310000 0.012445
715.060000 0.012412
715.810000 0.011835
716.560000 0.012406
717.320000 0.012418
718.070000 0.012257
718.820000 0.012026
719.570000 0.012040
720.320000 0.011005
721.070000 0.010638
721.830000 0.010738
722.580000 0.010275
723.330000 0.009764
724.080000 0.009852
724.830000 0.009659
725.580000 0.010033
726.330000 0.009545
727.080000 0.009652
727.830000 0.009390
728.580000 0.009030
729.330000 0.008394
730.080000 0.008075
730.830000 0.007843
731.580000 0.007351
732.340000 0.007603
733.090000 0.007428
733.840000 0.007564
734.590000 0.007511
735.340000 0.008054
736.090000 0.007424
736.830000 0.007094
737.580000 0.006889
738.330000 0.006681
739.080000 0.006052
739.830000 0.005561
740.580000 0.005561
741.330000 0.005254
742.080000 0.005270
742.830000 0.005346
743.580000 0.005373
744.330000 0.005210
745.080000 0.005602
745.830000 0.004861
746.570000 0.004849
747.320000 0.005413
748.070000 0.005593
748.820000 0.004833
749.570000 0.005180
750.320000 0.004741
751.070000 0.004361
751.810000 0.003320
752.560000 0.003887
753.310000 0.003354
754.060000 0.003654
754.810000 0.003247
755.550000 0.003811
756.300000 0.003860
757.050000 0.004489
757.800000 0.004550
758.550000 0.004604
759.290000 0.004939
760.040000 0.004465
760.790000 0.004565
761.530000 0.004078
762.280000 0.003942
763.030000 0.003992
763.780000 0.003826
764.520000 0.003406
765.270000 0.003152
766.020000 0.003007
766.760000 0.002085
767.510000 0.002551
768.260000 0.004231
769.000000 0.004970
769.750000 0.005586
770.500000 0.005008
771.240000 0.005159
771.990000 0.003488
772.730000 0.003568
773.480000 0.003113
774.230000 0.003806
774.970000 0.003138
775.720000 0.002989
776.460000 0.002193
777.210000 0.002650
777.960000 0.002715
778.700000 0.003163
779.450000 0.002978
780.190000 0.003077
780.940000 0.002949
781.680000 0.003729
782.430000 0.003740
783.170000 0.003981
783.920000 0.003694
784.660000 0.003280
785.410000 0.002860
786.150000 0.002104
786.900000 0.002209
787.640000 0.001734
788.390000 0.001743
789.130000 0.001876
789.870000 0.002299
790.620000 0.001690
791.360000 0.002640
792.110000 0.002405
792.850000 0.001520
793.600000 0.001845
794.340000 0.002257
795.080000 0.002445
795.830000 0.002812
796.570000 0.003425
797.310000 0.003269
798.060000 0.003254
798.800000 0.003240
799.540000 0.003759
800.290000 0.003963
801.030000 0.003912
801.770000 0.003891
802.520000 0.003293
803.260000 0.002701
804.000000 0.001289
804.750000 0.000673
805.490000 0.000336
806.230000 0.000524
806.970000 0.000435
807.720000 0.001497
808.460000 0.001894
809.200000 0.001586
809.940000 0.000976
810.690000 0.001156
811.430000 0.000919
812.170000 0.000855
812.910000 0.001271
813.650000 0.002247
814.400000 0.002420
815.140000 0.002630
815.880000 0.002502
816.620000 0.003048
817.360000 0.001016
818.110000 0.000462
818.850000 0.000688
819.590000 0.000736
820.330000 0.000281
821.070000 0.001929
821.810000 0.002799
822.550000 0.002240
823.290000 0.002283
824.030000 0.002521
824.780000 0.002236
825.520000 0.001255
826.260000 0.001632
827.000000 0.001527
827.740000 0.001394
828.480000 0.001343
829.220000 0.000897
829.960000 0.000270
830.700000 0.000365
831.440000 0.000219
832.180000 0.001128
832.920000 0.001898
833.660000 0.002288
834.400000 0.002098
835.140000 0.002142
835.880000 0.000797
836.620000 0.000918
837.360000 0.001082
838.100000 0.001277
838.840000 0.001597
839.580000 0.002173
840.310000 0.001547
841.050000 0.002103
841.790000 0.001770
842.530000 0.001235
843.270000 0.001844
844.010000 0.003000
844.750000 0.001859
845.490000 0.002419
846.230000 0.002569
846.960000 0.002295
847.700000 0.000379
848.440000 0.001589
849.180000 0.001342
849.920000 0.001241
850.660000 0.000683
851.390000 0.001912
852.130000 -0.004096
852.870000 -0.004244
853.610000 -0.004188
854.350000 -0.003977
855.080000 -0.003481
855.820000 0.001518
856.560000 0.000646
857.300000 0.000393
858.030000 0.000312
858.770000 -0.000413
859.510000 -0.002058
860.240000 -0.001638
860.980000 -0.001547
861.720000 -0.001992
862.460000 -0.001785
863.190000 0.000674
863.930000 0.001538
864.670000 0.001706
865.400000 0.003299
866.140000 0.003103
866.880000 0.002864
867.610000 0.002552
868.350000 0.002377
869.080000 0.002260
869.820000 0.002509
870.560000 0.002012
871.290000 0.001858
872.030000 0.001562
872.760000 0.000507
873.500000 0.000056
874.240000 -0.000030
874.970000 0.000661
875.710000 0.001154
876.440000 0.001304
877.180000 0.001592
877.910000 0.002215
878.650000 0.001754
879.380000 0.001235
880.120000 -0.000909
880.850000 -0.000327
881.590000 -0.002076
882.320000 -0.002234
883.060000 -0.001828
883.790000 -0.000179
884.530000 -0.001217
885.260000 0.001164
886.000000 0.000984
886.730000 0.000168
887.470000 0.000422
888.200000 0.001149
888.930000 -0.000052
889.670000 -0.003814
890.400000 -0.003110
891.140000 -0.003226
891.870000 -0.004568
892.600000 -0.004488
893.340000 -0.000591
894.070000 -0.000317
894.800000 -0.000472
895.540000 0.002084
896.270000 0.001675
897.010000 0.002365
897.740000 0.002268
898.470000 0.002554
899.200000 0.001097
899.940000 0.001937
900.670000 0.001409
901.400000 0.001207
902.140000 0.001049
902.870000 0.001593
903.600000 0.001134
904.330000 0.000891
905.070000 0.000968
905.800000 0.000863
906.530000 0.000908
907.260000 0.001259
908.000000 0.001100
908.730000 0.001338
909.460000 0.001863
910.190000 0.001172
910.920000 0.000819
911.660000 0.000520
912.390000 0.000350
913.120000 0.000049
913.850000 0.000136
914.580000 -0.000038
915.310000 0.000394
916.040000 0.000347
916.780000 0.000280
917.510000 0.000732
918.240000 0.001371
918.970000 0.001166
919.700000 0.000631
920.430000 0.000247
921.160000 0.000027
921.890000 -0.000352
922.620000 -0.000129
923.350000 0.000561
924.080000 0.001243
924.820000 0.001630
925.550000 0.002142
926.280000 0.001541
927.010000 0.001292
927.740000 0.000363
928.470000 0.001102
929.200000 0.000405
929.930000 0.001255
930.660000 0.001111
931.390000 -0.001538
932.120000 -0.002786
932.840000 -0.001753
933.570000 -0.002676
934.300000 -0.002552
935.030000 0.000972
935.760000 -0.001473
936.490000 -0.002905
937.220000 -0.002492
937.950000 -0.001358
938.680000 -0.001147
939.410000 0.001868
940.140000 0.002378
940.860000 0.002972
941.590000 0.001763
942.320000 0.000764
943.050000 -0.000961
943.780000 -0.000699
944.510000 -0.000793
945.240000 -0.000167
945.960000 0.000195
946.690000 0.000823
947.420000 0.000816
948.150000 0.000360
948.880000 -0.000517
949.600000 0.000416
950.330000 0.001528
951.060000 0.001490
951.790000 0.000962
952.510000 0.005384
953.240000 0.004757
953.970000 0.004650
954.700000 0.003749
955.420000 0.003833
956.150000 -0.000751
956.880000 -0.000903
957.600000 -0.000849
958.330000 -0.000462
959.060000 -0.000302
959.780000 0.000436
960.510000 0.000830
961.240000 0.000699
961.960000 0.001335
962.690000 0.000985
963.420000 0.000684
964.140000 0.001120
964.870000 -0.003476
965.600000 -0.003942
966.320000 -0.003357
967.050000 -0.003607
967.770000 -0.003715
968.500000 0.000163
969.230000 0.000349
969.950000 0.000163
970.680000 -0.000270
971.400000 -0.000425
972.130000 -0.000202
972.850000 0.003102
973.580000 0.003644
974.300000 0.003846
975.030000 0.003694
975.750000 0.004328
976.480000 0.000575
977.200000 -0.000185
977.930000 0.000301
978.650000 0.000691
979.380000 -0.000567
980.100000 0.001720
980.830000 0.002118
981.550000 0.002260
982.280000 0.002141
983.000000 0.001820
983.720000 0.000543
984.450000 0.000899
985.170000 0.000416
985.900000 0.000887
986.620000 0.000811
987.340000 0.000754
988.070000 0.000357
988.790000 0.000308
989.510000 -0.000994
990.240000 -0.001717
990.960000 0.000033
991.680000 0.000033
